#Acq. time (s)=	1
#Accumulations=	3
#Range=	Off
#Autofocus=	Off
#AutoExposure=	Off
#Spike filter=	Single accum. (Size=3)
#Delay time (s)=	0
#Binning=	1
#Readout mode=	Signal
#DeNoise=	Off
#ICS correction=	Off
#Dark correction=	Off
#Inst. Process=	Off
#Detector temperature (°C)=	-60.1
#Instrument=	LabRAM HR Evol
#Detector=	Syncerity
#Objective=	x100
#Grating=	1800 gr/mm
#Laser (nm)=	532 
#Spectro (cm-¹)=	4400
#ND Filter=	0.01%
#Hole=	199.981
#StageXY=	Marzhauser
#StageZ=	Marzhauser
#X (µm)=	-2144.7
#Y (µm)=	975.3
#Z (µm)=	70.3
#Full time(s)=	7
#Project=	
#Sample=	
#Site=	
#Title=	A_SOP02_82
#Remark=	
#Date=	12.02.2021 14:15
#Acquired=	12.02.2021 14:15:35
4261.72	41.6667
4261.99	41.6667
4262.27	50.3333
4262.55	39
4262.82	44.3333
4263.1	45.6667
4263.37	38.3333
4263.65	45
4263.92	41.6667
4264.2	44.3333
4264.48	41.6667
4264.75	47
4265.03	43.6667
4265.3	47.6667
4265.58	39
4265.85	45
4266.13	43
4266.4	45.6667
4266.68	45
4266.96	39.6667
4267.23	37.6667
4267.51	36.3333
4267.78	47.6667
4268.06	42.3333
4268.33	37.6667
4268.61	37.6667
4268.88	39
4269.16	40.3333
4269.44	42.3333
4269.71	40.3333
4269.99	39.6667
4270.26	40.3333
4270.54	35.6667
4270.81	43.6667
4271.09	41.6667
4271.36	39.6667
4271.64	44.3333
4271.91	41.6667
4272.19	38.3333
4272.46	38.3333
4272.74	45
4273.01	36.3333
4273.29	39.6667
4273.56	39
4273.84	45.6667
4274.11	41.6667
4274.39	47
4274.66	43
4274.94	43.6667
4275.21	35
4275.49	40.3333
4275.76	41
4276.04	39
4276.31	35.6667
4276.59	37
4276.86	39.6667
4277.14	33
4277.41	40.3333
4277.69	38.3333
4277.96	43
4278.24	39.6667
4278.51	39.6667
4278.79	43.6667
4279.06	43
4279.34	49
4279.61	39
4279.89	43
4280.16	39
4280.43	36.3333
4280.71	35.6667
4280.98	38.3333
4281.26	38.3333
4281.53	42.3333
4281.81	38.3333
4282.08	39
4282.36	45
4282.63	39
4282.91	39.6667
4283.18	35.6667
4283.46	41
4283.73	34.3333
4284	41.6667
4284.28	42.3333
4284.55	37.6667
4284.83	41
4285.1	37
4285.38	34.3333
4285.65	36.3333
4285.92	37.6667
4286.2	39.6667
4286.47	41
4286.75	41.6667
4287.02	38.3333
4287.29	41
4287.57	37.6667
4287.84	46.3333
4288.12	36.3333
4288.39	41.6667
4288.67	41.6667
4288.94	38.3333
4289.21	38.3333
4289.49	37.6667
4289.76	41
4290.04	39
4290.31	40.3333
4290.58	43
4290.86	36.3333
4291.13	42.3333
4291.4	40.3333
4291.68	41.6667
4291.95	40.3333
4292.23	42.3333
4292.5	38.3333
4292.77	41
4293.05	43.6667
4293.32	40.3333
4293.6	41.6667
4293.87	43.6667
4294.14	38.3333
4294.42	36.3333
4294.69	41
4294.96	35.6667
4295.24	41.6667
4295.51	42.3333
4295.79	42.3333
4296.06	43
4296.33	35
4296.61	41
4296.88	39.6667
4297.15	39
4297.43	39
4297.7	37.6667
4297.97	39.6667
4298.25	36.3333
4298.52	42.3333
4298.79	38.3333
4299.07	39.6667
4299.34	37.6667
4299.61	41.6667
4299.89	37
4300.16	42.3333
4300.43	39.6667
4300.71	39
4300.98	40.3333
4301.25	36.3333
4301.53	37
4301.8	33
4302.07	39
4302.35	41
4302.62	38.3333
4302.89	39.6667
4303.17	40.3333
4303.44	37.6667
4303.71	37
4303.98	40.3333
4304.26	40.3333
4304.53	38.3333
4304.8	37
4305.08	35
4305.35	34.3333
4305.62	37.6667
4305.89	37.6667
4306.17	35.6667
4306.44	40.3333
4306.71	39
4306.99	40.3333
4307.26	33
4307.53	39
4307.8	36.3333
4308.08	39
4308.35	39
4308.62	41
4308.9	37.6667
4309.17	37
4309.44	35
4309.71	38.3333
4309.99	42.3333
4310.26	39
4310.53	36.3333
4310.8	37
4311.08	37.6667
4311.35	45
4311.62	37.6667
4311.89	39
4312.17	41
4312.44	35
4312.71	39
4312.98	38.3333
4313.26	39.6667
4313.53	36.3333
4313.8	43
4314.07	41.6667
4314.35	38.3333
4314.62	42.3333
4314.89	40.3333
4315.16	41
4315.43	37.6667
4315.71	41.6667
4315.98	36.3333
4316.25	35.6667
4316.52	41.6667
4316.8	39
4317.07	39
4317.34	35
4317.61	39
4317.88	39.6667
4318.16	42.3333
4318.43	38.3333
4318.7	41
4318.97	40.3333
4319.24	45.6667
4319.52	37.6667
4319.79	40.3333
4320.06	41
4320.33	41.6667
4320.6	37.6667
4320.88	35
4321.15	42.3333
4321.42	41.6667
4321.69	41
4321.96	42.3333
4322.23	35.6667
4322.51	38.3333
4322.78	39
4323.05	35
4323.32	42.3333
4323.59	43
4323.87	49.6667
4324.14	38.3333
4324.41	37
4324.68	42.3333
4324.95	37.6667
4325.22	38.3333
4325.49	41
4325.77	41
4326.04	37.6667
4326.31	35
4326.58	43
4326.85	42.3333
4327.12	36.3333
4327.4	38.3333
4327.67	40.3333
4327.94	40.3333
4328.21	40.3333
4328.48	41.6667
4328.75	41
4329.02	41
4329.29	39
4329.57	35
4329.84	45
4330.11	33
4330.38	39
4330.65	41
4330.92	32.3333
4331.19	33.6667
4331.46	40.3333
4331.74	37
4332.01	41
4332.28	44.3333
4332.55	44.3333
4332.82	42.3333
4333.09	38.3333
4333.36	39.6667
4333.63	37.6667
4333.9	36.3333
4334.18	42.3333
4334.45	41
4334.72	39.6667
4334.99	35.6667
4335.26	37.6667
4335.53	45
4335.8	41.6667
4336.07	41.6667
4336.34	37.6667
4336.61	43
4336.88	37.6667
4337.15	42.3333
4337.42	38.3333
4337.7	38.3333
4337.97	39
4338.24	39.6667
4338.51	42.3333
4338.78	38.3333
4339.05	46.3333
4339.32	39.6667
4339.59	43
4339.86	43.6667
4340.13	35
4340.4	39.6667
4340.67	40.3333
4340.94	41.6667
4341.21	42.3333
4341.48	45.6667
4341.75	42.3333
4342.02	47.6667
4342.29	47
4342.56	44.3333
4342.84	35.6667
4343.11	40.3333
4343.38	41.6667
4343.65	38.3333
4343.92	37
4344.19	40.3333
4344.46	45
4344.73	39
4345	43
4345.27	43.6667
4345.54	43
4345.81	39
4346.08	38.3333
4346.35	43.6667
4346.62	43.6667
4346.89	43
4347.16	40.3333
4347.43	40.3333
4347.7	39.6667
4347.97	42.3333
4348.24	45.6667
4348.51	43.6667
4348.78	46.3333
4349.05	39.6667
4349.32	43
4349.59	42.3333
4349.86	42.3333
4350.13	43.6667
4350.4	43.6667
4350.67	47
4350.94	45.6667
4351.21	45
4351.48	39.6667
4351.75	49
4352.02	48.3333
4352.29	39.6667
4352.56	39.6667
4352.83	42.3333
4353.1	46.3333
4353.37	41.6667
4353.64	46.3333
4353.9	45.6667
4354.17	42.3333
4354.44	48.3333
4354.71	41.6667
4354.98	43.6667
4355.25	45.6667
4355.52	47
4355.79	47
4356.06	45.6667
4356.33	45
4356.6	46.3333
4356.87	44.3333
4357.14	39.6667
4357.41	42.3333
4357.68	46.3333
4357.95	45
4358.22	40.3333
4358.49	41
4358.75	44.3333
4359.02	43.6667
4359.29	49.6667
4359.56	44.3333
4359.83	50.3333
4360.1	44.3333
4360.37	46.3333
4360.64	49
4360.91	43.6667
4361.18	49
4361.45	46.3333
4361.72	44.3333
4361.98	47.6667
4362.25	44.3333
4362.52	49.6667
4362.79	43.6667
4363.06	47
4363.33	53.6667
4363.6	50.3333
4363.87	49.6667
4364.14	50.3333
4364.4	46.3333
4364.67	43
4364.94	47.6667
4365.21	44.3333
4365.48	48.3333
4365.75	55.6667
4366.02	49
4366.29	49.6667
4366.56	49.6667
4366.82	51
4367.09	49.6667
4367.36	47
4367.63	54.3333
4367.9	49.6667
4368.17	45
4368.44	53
4368.71	49.6667
4368.97	49.6667
4369.24	52.3333
4369.51	56.3333
4369.78	58.3333
4370.05	53
4370.32	50.3333
4370.58	51.6667
4370.85	47
4371.12	56.3333
4371.39	53
4371.66	53.6667
4371.93	45
4372.19	55
4372.46	55.6667
4372.73	51.6667
4373	53.6667
4373.27	56.3333
4373.54	51.6667
4373.8	53.6667
4374.07	60.3333
4374.34	53
4374.61	58.3333
4374.88	57
4375.15	55.6667
4375.41	53.6667
4375.68	53.6667
4375.95	57.6667
4376.22	55.6667
4376.49	57.6667
4376.75	55.6667
4377.02	59.6667
4377.29	56.3333
4377.56	54.3333
4377.83	63
4378.09	51
4378.36	62.3333
4378.63	57
4378.9	61.6667
4379.17	57.6667
4379.43	59.6667
4379.7	58.3333
4379.97	59.6667
4380.24	57
4380.5	59
4380.77	62.3333
4381.04	58.3333
4381.31	61.6667
4381.58	66.3333
4381.84	63.6667
4382.11	59
4382.38	65
4382.65	61
4382.91	61.6667
4383.18	67
4383.45	65.6667
4383.72	61.6667
4383.98	60.3333
4384.25	67
4384.52	59
4384.79	71
4385.05	64.3333
4385.32	69.6667
4385.59	69.6667
4385.86	69.6667
4386.12	65
4386.39	67
4386.66	69.6667
4386.93	67
4387.19	66.3333
4387.46	67
4387.73	69.6667
4388	73
4388.26	72.3333
4388.53	75.6667
4388.8	69.6667
4389.06	70.3333
4389.33	70.3333
4389.6	75
4389.87	71
4390.13	75
4390.4	76.3333
4390.67	69.6667
4390.93	75.6667
4391.2	80.3333
4391.47	76.3333
4391.73	74.3333
4392	73.6667
4392.27	74.3333
4392.54	75.6667
4392.8	75
4393.07	75.6667
4393.34	82.3333
4393.6	81
4393.87	76.3333
4394.14	83.6667
4394.4	83
4394.67	89
4394.94	73.6667
4395.2	79
4395.47	79.6667
4395.74	80.3333
4396	84.3333
4396.27	87
4396.54	93
4396.8	86.3333
4397.07	86.3333
4397.34	92.3333
4397.6	91.6667
4397.87	87.6667
4398.14	93
4398.4	89
4398.67	92.3333
4398.94	98.3333
4399.2	87
4399.47	87
4399.74	95
4400	97
4400.27	94.3333
4400.53	98.3333
4400.8	101.667
4401.07	99
4401.33	105.667
4401.6	103.667
4401.87	99.6667
4402.13	99
4402.4	97.6667
4402.67	105
4402.93	99
4403.2	102.333
4403.46	103
4403.73	101
4404	107
4404.26	100.333
4404.53	105
4404.79	107
4405.06	104.333
4405.33	106.333
4405.59	114.333
4405.86	109
4406.13	113.667
4406.39	115.667
4406.66	113
4406.92	120.333
4407.19	115
4407.45	115.667
4407.72	114.333
4407.99	117
4408.25	115
4408.52	119.667
4408.78	123
4409.05	122.333
4409.32	129
4409.58	127
4409.85	133
4410.11	123.667
4410.38	124.333
4410.65	135.667
4410.91	127
4411.18	135
4411.44	147
4411.71	132.333
4411.97	136.333
4412.24	141.667
4412.5	139
4412.77	141
4413.04	141.667
4413.3	134.333
4413.57	153.667
4413.83	142.333
4414.1	156.333
4414.36	151.667
4414.63	140.333
4414.89	153
4415.16	145
4415.42	161.667
4415.69	159.667
4415.96	167
4416.22	157.667
4416.49	155.667
4416.75	162.333
4417.02	171.667
4417.28	162.333
4417.55	179
4417.81	167.667
4418.08	177
4418.34	180.333
4418.61	182.333
4418.87	183.667
4419.14	190.333
4419.4	187.667
4419.67	191
4419.93	196.333
4420.2	201
4420.46	199
4420.73	200.333
4420.99	213
4421.26	205.667
4421.52	218.333
4421.79	215.667
4422.05	222.333
4422.32	226.333
4422.58	225
4422.85	234.333
4423.11	236.333
4423.38	237
4423.64	244.333
4423.91	251.667
4424.17	263.667
4424.44	266.333
4424.7	263
4424.97	278.333
4425.23	287
4425.49	286.333
4425.76	291
4426.02	289.667
4426.29	310.333
4426.55	309.667
4426.82	327
4427.08	331.667
4427.35	326.333
4427.61	339
4427.88	366.333
4428.14	355
4428.4	377
4428.67	379
4428.93	386.333
4429.2	387
4429.46	413.667
4429.73	439.667
4429.99	443
4430.25	444.333
4430.52	471.667
4430.78	477.667
4431.05	509.667
4431.31	530.333
4431.58	530.333
4431.84	545.667
4432.1	549.667
4432.37	611
4432.63	606.333
4432.9	635.667
4433.16	677.667
4433.43	680.333
4433.69	710.333
4433.95	743.667
4434.22	777.667
4434.48	796.333
4434.75	857
4435.01	886.333
4435.27	929.667
4435.54	964.333
4435.8	1021.67
4436.07	1063
4436.33	1073
4436.59	1165.67
4436.86	1229.67
4437.12	1240.33
4437.39	1320.33
4437.65	1393
4437.91	1453.67
4438.18	1559.67
4438.44	1633
4438.71	1705.67
4438.97	1791.67
4439.23	1892.33
4439.5	2006.33
4439.76	2087
4440.02	2187.67
4440.29	2308.33
4440.55	2425
4440.81	2501
4441.08	2655.67
4441.34	2759.67
4441.6	2861
4441.87	3003
4442.13	3118.33
4442.39	3190.33
4442.66	3340.33
4442.92	3353
4443.19	3495.67
4443.45	3607
4443.71	3707
4443.98	3759.67
4444.24	3811
4444.5	3829
4444.77	3893.67
4445.03	3955
4445.29	3889
4445.56	3876.33
4445.82	3849
4446.08	3832.33
4446.34	3787
4446.61	3751.67
4446.87	3701
4447.13	3618.33
4447.4	3554.33
4447.66	3443.67
4447.92	3414.33
4448.19	3303
4448.45	3194.33
4448.71	3055
4448.98	3012.33
4449.24	2932.33
4449.5	2886.33
4449.77	2754.33
4450.03	2646.33
4450.29	2591.67
4450.55	2529
4450.82	2467.67
4451.08	2337
4451.34	2262.33
4451.61	2170.33
4451.87	2149
4452.13	2097.67
4452.39	2031.67
4452.66	1973.67
4452.92	1907.67
4453.18	1855.67
4453.45	1789.67
4453.71	1771
4453.97	1742.33
4454.23	1721
4454.5	1672.33
4454.76	1633.67
4455.02	1634.33
4455.28	1594.33
4455.55	1541.67
4455.81	1567.67
4456.07	1537
4456.33	1511.67
4456.6	1531
4456.86	1487.67
4457.12	1467
4457.38	1483.67
4457.65	1447
4457.91	1439.67
4458.17	1435.67
4458.43	1390.33
4458.7	1450.33
4458.96	1435.67
4459.22	1423
4459.48	1429.67
4459.74	1440.33
4460.01	1475.67
4460.27	1467.67
4460.53	1491
4460.79	1519.67
4461.06	1527.67
4461.32	1546.33
4461.58	1561
4461.84	1601
4462.1	1625
4462.37	1645
4462.63	1673.67
4462.89	1725.67
4463.15	1779.67
4463.41	1792.33
4463.68	1820.33
4463.94	1889.67
4464.2	1949
4464.46	1981
4464.72	2011.67
4464.99	2101
4465.25	2158.33
4465.51	2257
4465.77	2325
4466.03	2409.67
4466.3	2495.67
4466.56	2599
4466.82	2659.67
4467.08	2787.67
4467.34	2890.33
4467.6	3031
4467.87	3101
4468.13	3249.67
4468.39	3377
4468.65	3545
4468.91	3681
4469.17	3828.33
4469.44	3906.33
4469.7	4113.67
4469.96	4303.67
4470.22	4466.33
4470.48	4585.67
4470.75	4707
4471.01	4898.33
4471.27	5072.33
4471.53	5225.67
4471.79	5318.33
4472.05	5469.67
4472.31	5589
4472.57	5701.67
4472.84	5850.33
4473.1	5957.67
4473.36	5969
4473.62	6028.33
4473.88	6091
4474.14	6118.33
4474.4	6200.33
4474.66	6145
4474.93	6112.33
4475.19	5990.33
4475.45	6027.67
4475.71	6047.67
4475.97	5903.67
4476.23	5785
4476.49	5681
4476.75	5684.33
4477.02	5511
4477.28	5389.67
4477.54	5248.33
4477.8	5125
4478.06	5023.67
4478.32	4927
4478.58	4759
4478.84	4623.67
4479.1	4435.67
4479.36	4318.33
4479.63	4160.33
4479.89	4056.33
4480.15	3908.33
4480.41	3744.33
4480.67	3619
4480.93	3491.67
4481.19	3439
4481.45	3279.67
4481.71	3136.33
4481.97	3044.33
4482.23	2929.67
4482.49	2851
4482.75	2753.67
4483.02	2635
4483.28	2521.67
4483.54	2454.33
4483.8	2415
4484.06	2339
4484.32	2215
4484.58	2122.33
4484.84	2063.67
4485.1	2000.33
4485.36	1963.67
4485.62	1868.33
4485.88	1837.67
4486.14	1752.33
4486.4	1713
4486.66	1647.67
4486.92	1604.33
4487.18	1542.33
4487.44	1488.33
4487.7	1441.67
4487.96	1386.33
4488.22	1367
4488.49	1353.67
4488.75	1283
4489.01	1232.33
4489.27	1185
4489.53	1187.67
4489.79	1127
4490.05	1103.67
4490.31	1045
4490.57	1052.33
4490.83	1008.33
4491.09	1003.67
4491.35	967.667
4491.61	937
4491.87	913
4492.13	890.333
4492.39	887.667
4492.65	863
4492.91	830.333
4493.17	811
4493.43	787
4493.69	769
4493.95	779.667
4494.21	742.333
4494.47	725
4494.73	697.667
4494.99	713.667
4495.25	698.333
4495.51	662.333
4495.77	661
4496.02	636.333
4496.28	637.667
4496.55	625
4496.8	619
4497.06	593.667
4497.32	590.333
4497.58	581
4497.84	588.333
4498.1	569.667
4498.36	566.333
4498.62	552.333
4498.88	529.667
4499.14	539
4499.4	542.333
4499.66	532.333
4499.92	519
4500.18	518.333
4500.44	505
4500.7	502.333
4500.96	497.667
4501.22	488.333
4501.48	471
4501.73	458.333
4501.99	457.667
4502.25	442.333
4502.51	455
4502.77	443
4503.03	431
4503.29	430.333
4503.55	444.333
4503.81	424.333
4504.07	417.667
4504.33	405.667
4504.59	409
4504.85	401.667
4505.11	393.667
4505.36	385.667
4505.62	382.333
4505.88	380.333
4506.14	373
4506.4	381
4506.66	377
4506.92	371.667
4507.18	349.667
4507.44	361.667
4507.69	352.333
4507.95	355
4508.21	346.333
4508.47	341.667
4508.73	323
4508.99	329.667
4509.25	323.667
4509.51	325.667
4509.77	305
4510.02	309
4510.28	303
4510.54	293.667
4510.8	303
4511.06	310.333
4511.32	286.333
4511.58	285.667
4511.84	290.333
4512.09	270.333
4512.35	284.333
4512.61	281.667
4512.87	291.667
4513.13	289.667
4513.39	270.333
4513.65	277
4513.9	266.333
4514.16	265
4514.42	276.333
4514.68	269
4514.94	257
4515.2	256.333
4515.46	259
4515.71	257
4515.97	243.667
4516.23	263
4516.49	257
4516.75	249.667
4517	249
4517.26	242.333
4517.52	247.667
4517.78	253
4518.04	251.667
4518.3	248.333
4518.55	229
4518.81	237
4519.07	237.667
4519.33	245
4519.59	238.333
4519.85	229.667
4520.1	238.333
4520.36	236.333
4520.62	231
4520.88	223.667
4521.13	231.667
4521.39	228.333
4521.65	225
4521.91	231
4522.17	221.667
4522.42	224.333
4522.68	225
4522.94	221.667
4523.2	223
4523.46	210.333
4523.71	217
4523.97	216.333
4524.23	214.333
4524.49	215
4524.74	205.667
4525	201
4525.26	212.333
4525.52	206.333
4525.78	195
4526.03	198.333
4526.29	194.333
4526.55	195
4526.81	209
4527.06	202.333
4527.32	190.333
4527.58	183.667
4527.84	195
4528.09	181
4528.35	193.667
4528.61	179.667
4528.87	185
4529.12	193.667
4529.38	183
4529.64	190.333
4529.9	183.667
4530.15	179.667
4530.41	181.667
4530.67	182.333
4530.92	175
4531.18	173
4531.44	180.333
4531.7	181.667
4531.95	177.667
4532.21	179.667
4532.47	173
4532.73	179.667
4532.98	177
4533.24	173
4533.5	169.667
4533.75	175
4534.01	168.333
4534.27	165.667
